; Epics Scan 1 dimensional scan
;  current scan  = 1
;  scan dimension= 1
;  scan prefix   = 13BMD:
; User titles:
; after moving energy from 19994.0 to 20000.0
; 
; PV list:
; Storage Ring Current (S:SRcurrentAI.VAL)	 = 102.408
; FOE Mono angle readback (13BMA:m17.RBV)	 = 5.7163
; Mono Energy drive val (13BMA:E:Energy.VAL)	 = 19850.0000
; Mono Energy readback (13BMA:E:E_RBV)	 = 19845.1141
; Mono Beam Offset (13BMA:E:height.VAL)	 = 19.0000
; I0 sensitivity value (13BMD:A3sens_num.VAL)	 = 200
; I0 sensitivity value (13BMD:A3sens_unit.VAL)	 = pA/V
; I1 sensitivity value (13BMD:A2sens_num.VAL)	 = 200
; I1 sensitivity value (13BMD:A2sens_unit.VAL)	 = pA/V
; FOE Mono Yout (13BMA:m10.VAL)	 = 9.8396
; FOE Mono Yin (13BMA:m11.VAL)	 = 10.0892
; FOE Mono Yup (13BMA:m12.VAL)	 = 9.1309
; FOE Mono Cage Y (13BMA:m13.VAL)	 = 0.000
; FOE Mono Z (13BMA:m14.VAL)	 = 95.788
; FOE Mono angle (13BMA:m17.VAL)	 = 5.7163
; BMD Horiz Width (13BMD:BMDHt2.C)	 = 0.500
; BMD Horiz Center (13BMD:BMDHt2.D)	 = -4.000
; BMD Vertical Width (13BMD:BMDVt2.C)	 = 0.400
; BMD Vertical Center (13BMD:BMDVt2.D)	 = -16.600
; Sample X (13BMD:m70.VAL)	 = 305.700
; Sample Z (focus) (13BMD:m33.VAL)	 = 29.540
; Sample Y (height) (13BMD:m34.VAL)	 = 387.850
; Scan Regions: EXAFS scan with        3 regions
;   E0 =       20000.0
;       Start       Stop       Step       Npts       Time   Kspace?
;     -150.00    -15.000     5.0000     28.000     2.0000   0
;     -15.000     25.000    0.50000     81.000     2.0000   0
;      2.5616     8.0000   0.049894     110.00     2.0000   1
; scan began at time: Wed Jun 20 11:35:42 2007
;=====================================================
; scan ended at time: Wed Jun 20 11:42:07 2007
; n_points      =      180
; column labels:
; P1 = {Energy} --> 13BMA:E:Energy.VAL
; P2 = {Scaler Count Time} --> 13BMD:scaler1.TP
; D1 = {I0}  --> 13BMD:scaler1_calc2.VAL
; D2 = {I1}  --> 13BMD:scaler1_calc3.VAL
;--------------------------------------------
;  P1 P2 D1 D2
       19849.96       2.000000       165108.4       160283.2 
       19854.98       2.000000       164885.4       159773.2 
       19860.00       2.000000       164700.4       159551.2 
       19865.03       2.000000       164440.4       159253.2 
       19870.05       2.000000       164253.4       159347.2 
       19875.08       2.000000       164295.4       159322.2 
       19880.12       2.000000       164006.4       159063.2 
       19884.98       2.000000       164187.4       159213.2 
       19890.01       2.000000       164535.4       159339.2 
       19894.88       2.000000       164061.4       159018.2 
       19899.92       2.000000       164148.4       158967.2 
       19904.79       2.000000       163985.4       159107.2 
       19909.14       2.000000       163758.4       158705.2 
       19915.07       2.000000       163868.4       158631.2 
       19919.95       2.000000       163849.4       158674.2 
       19924.83       2.000000       163920.4       158675.2 
       19930.06       2.000000       164207.4       158666.2 
       19935.12       2.000000       164145.4       158600.2 
       19940.01       2.000000       163919.4       158306.2 
       19945.07       2.000000       163962.4       158223.2 
       19949.97       2.000000       163992.4       158284.2 
       19955.04       2.000000       164046.4       157813.2 
       19960.11       2.000000       163788.4       157417.2 
       19965.01       2.000000       163874.4       156914.2 
       19970.09       2.000000       163776.4       156068.2 
       19974.99       2.000000       163677.4       155032.2 
       19980.08       2.000000       163655.4       153919.2 
       19984.81       2.000000       163844.4       152072.2 
       19985.52       2.000000       163851.4       151971.2 
       19986.04       2.000000       164103.4       151831.2 
       19986.57       2.000000       163803.4       151574.2 
       19987.27       2.000000       163991.4       151142.2 
       19987.62       2.000000       163600.4       150654.2 
       19987.97       2.000000       163594.4       150168.2 
       19988.50       2.000000       163552.4       149871.2 
       19989.03       2.000000       163565.4       149339.2 
       19989.55       2.000000       163802.4       149016.2 
       19990.08       2.000000       163569.4       148327.2 
       19990.60       2.000000       163584.4       147747.2 
       19990.96       2.000000       163616.4       147375.2 
       19991.48       2.000000       163507.4       146527.2 
       19992.01       2.000000       163542.4       145882.2 
       19992.54       2.000000       163524.4       144778.2 
       19993.24       2.000000       163449.4       143846.2 
       19993.59       2.000000       163453.4       142734.2 
       19994.12       2.000000       163385.4       141282.2 
       19994.47       2.000000       163338.4       140074.2 
       19994.99       2.000000       163361.4       138705.2 
       19995.52       2.000000       163336.4       136512.2 
       19996.05       2.000000       163233.4       134369.2 
       19996.57       2.000000       163416.4       131832.2 
       19997.10       2.000000       163424.4       128669.2 
       19997.45       2.000000       163403.4       126677.2 
       19997.98       2.000000       163623.4       123240.2 
       19998.51       2.000000       163993.4       119526.2 
       19999.21       2.000000       163983.4       115245.2 
       19999.56       2.000000       164088.4       110794.2 
       20000.26       2.000000       164065.4       106250.2 
       20000.61       2.000000       164011.4       101979.2 
       20000.96       2.000000       164049.4       99116.20 
       20001.67       2.000000       164070.4       95042.20 
       20002.20       2.000000       163905.4       91017.20 
       20002.72       2.000000       163983.4       87798.20 
       20003.25       2.000000       163903.4       84389.20 
       20003.60       2.000000       163882.4       81313.20 
       20003.95       2.000000       163770.4       79412.20 
       20004.66       2.000000       163736.4       76600.20 
       20005.18       2.000000       163820.4       73813.20 
       20005.71       2.000000       163736.4       71292.20 
       20006.06       2.000000       163901.4       68608.20 
       20006.59       2.000000       163695.4       66251.20 
       20007.29       2.000000       163842.4       63956.20 
       20007.47       2.000000       163737.4       62487.20 
       20008.00       2.000000       163682.4       60057.20 
       20008.52       2.000000       163617.4       57650.20 
       20009.05       2.000000       163559.4       55228.20 
       20009.75       2.000000       163696.4       52875.20 
       20010.11       2.000000       163531.4       50343.20 
       20010.46       2.000000       163593.4       48802.20 
       20011.16       2.000000       163720.4       46351.20 
       20011.51       2.000000       163582.4       43599.20 
       20012.04       2.000000       164095.4       41414.20 
       20012.57       2.000000       164178.4       39290.20 
       20013.10       2.000000       163997.4       37132.20 
       20013.45       2.000000       164237.4       35940.20 
       20013.98       2.000000       164151.4       34335.20 
       20014.50       2.000000       164262.4       33032.20 
       20015.21       2.000000       164052.4       31928.20 
       20015.56       2.000000       163997.4       31185.20 
       20016.09       2.000000       164101.4       30874.20 
       20016.79       2.000000       164055.4       30825.20 
       20016.97       2.000000       164108.4       30894.20 
       20017.50       2.000000       163890.4       31167.20 
       20018.02       2.000000       163968.4       31437.20 
       20018.55       2.000000       163986.4       32133.20 
       20019.26       2.000000       163971.4       32668.20 
       20019.61       2.000000       163779.4       33270.20 
       20019.96       2.000000       163625.4       33620.20 
       20020.49       2.000000       163703.4       34142.20 
       20021.02       2.000000       163858.4       34616.20 
       20021.72       2.000000       163802.4       34835.20 
       20022.07       2.000000       163941.4       35077.20 
       20022.60       2.000000       163706.4       35111.20 
       20023.13       2.000000       163755.4       35073.20 
       20023.48       2.000000       163768.4       34812.20 
       20024.19       2.000000       163591.4       34491.20 
       20024.54       2.000000       163740.4       34019.20 
       20025.07       2.000000       163574.4       33756.20 
       20026.12       2.000000       163485.4       33309.20 
       20027.18       2.000000       163701.4       33085.20 
       20028.06       2.000000       164038.4       32874.20 
       20029.12       2.000000       164243.4       32868.20 
       20030.35       2.000000       164386.4       32841.20 
       20031.41       2.000000       164415.4       32907.20 
       20032.29       2.000000       164261.4       32786.20 
       20033.35       2.000000       164162.4       32515.20 
       20034.58       2.000000       164255.4       32081.20 
       20035.64       2.000000       164301.4       31596.20 
       20036.88       2.000000       164067.4       31110.20 
       20038.11       2.000000       164192.4       30506.20 
       20039.34       2.000000       164233.4       29829.20 
       20040.75       2.000000       164123.4       29128.20 
       20041.81       2.000000       164064.4       28518.20 
       20043.05       2.000000       164115.4       28065.20 
       20044.28       2.000000       163912.4       27867.20 
       20045.70       2.000000       163790.4       28017.20 
       20046.93       2.000000       163932.4       28503.20 
       20048.34       2.000000       163906.4       29596.20 
       20049.76       2.000000       163928.4       30851.20 
       20050.99       2.000000       163935.4       31905.20 
       20052.40       2.000000       164049.4       32907.20 
       20053.99       2.000000       163981.4       33599.20 
       20055.23       2.000000       164163.4       33668.20 
       20056.82       2.000000       163973.4       33775.20 
       20058.23       2.000000       163918.4       33619.20 
       20059.82       2.000000       163808.4       33144.20 
       20061.24       2.000000       163678.4       32709.20 
       20062.83       2.000000       163811.4       32365.20 
       20064.42       2.000000       164082.4       32345.20 
       20066.01       2.000000       164227.4       32500.20 
       20067.43       2.000000       164424.4       32629.20 
       20069.20       2.000000       163989.4       32726.20 
       20070.79       2.000000       164406.4       33160.20 
       20072.38       2.000000       164408.4       33368.20 
       20073.97       2.000000       164182.4       33558.20 
       20075.74       2.000000       164236.4       33661.20 
       20077.52       2.000000       164239.4       33625.20 
       20079.11       2.000000       164066.4       33123.20 
       20080.88       2.000000       164117.4       32562.20 
       20082.65       2.000000       164002.4       31753.20 
       20084.42       2.000000       163968.4       31018.20 
       20086.20       2.000000       164002.4       30480.20 
       20088.14       2.000000       164108.4       30260.20 
       20089.92       2.000000       163955.4       30483.20 
       20091.69       2.000000       164040.4       31218.20 
       20093.64       2.000000       163935.4       32127.20 
       20095.59       2.000000       163854.4       32853.20 
       20097.37       2.000000       164251.4       33588.20 
       20099.32       2.000000       164277.4       33924.20 
       20101.27       2.000000       164180.4       33896.20 
       20103.22       2.000000       164093.4       33806.20 
       20105.35       2.000000       164077.4       33570.20 
       20107.31       2.000000       163926.4       33515.20 
       20109.26       2.000000       163909.4       33437.20 
       20111.39       2.000000       163627.4       33379.20 
       20113.35       2.000000       163600.4       33427.20 
       20115.48       2.000000       164006.4       33397.20 
       20117.61       2.000000       164001.4       33111.20 
       20119.74       2.000000       164442.4       32985.20 
       20121.88       2.000000       164068.4       32551.20 
       20124.01       2.000000       164343.4       32219.20 
       20126.15       2.000000       164659.4       31929.20 
       20128.46       2.000000       164313.4       31812.20 
       20130.60       2.000000       164454.4       31785.20 
       20132.91       2.000000       164394.4       32004.20 
       20135.05       2.000000       164448.4       32500.20 
       20137.36       2.000000       164294.4       33093.20 
       20139.68       2.000000       163939.4       33430.20 
       20142.00       2.000000       163653.4       33867.20 
       20144.31       2.000000       164439.4       34786.20 
